{
  "resourceType": "Bundle",
  "id": "321457432",
  "type": "collection",
  "timestamp": "2020-11-25T14:38:04.590+01:00",
  "entry": [ {
    "fullUrl": "http://interopehrate.eu/fhir/Resources/DocumentReference/34561",
    "resource": {
      "resourceType": "DocumentReference",
      "id": "34561",
      "meta": {
        "profile": [ "http://interopehrate.eu/fhir/StructureDefinition/DocumentReference-MedicalDocument-IEHR" ]
      },
      "language": "en",
      "identifier": [ {
        "system": "urn:oid:1.11.111.1.1.11.111.11",
        "value": "123321ab-123321ab"
      } ],
      "status": "current",
      "docStatus": "final",
      "type": {
        "coding": [ {
          "system": "http://loinc.org",
          "code": "34099-2",
          "display": "Cardiology Consult note"
        } ]
      },
      "subject": {
        "reference": "Patient/154678"
      },
      "date": "2020-11-25T14:38:04.610+01:00",
      "author": [ {
        "reference": "Practitioner/21"
      } ],
      "custodian": {
        "reference": "Organization/1"
      },
      "content": [ {
        "attachment": {
          "contentType": "application/pdf",
          "language": "en",
          "data": "",
          "title": "exampleCardConsult",
          "creation": "2020-06-25"
        }
      } ],
      "context": {
        "practiceSetting": {
          "coding": [ {
            "system": "http://snomed.info/sct",
            "code": "394579002",
            "display": "Cardiology"
          } ]
        }
      }
    }
  }, {
    "fullUrl": "http://interopehrate.eu/fhir/Resources/DocumentReference/34562",
    "resource": {
      "resourceType": "DocumentReference",
      "id": "34562",
      "meta": {
        "profile": [ "http://interopehrate.eu/fhir/StructureDefinition/DocumentReference-MedicalDocument-IEHR" ]
      },
      "language": "en",
      "identifier": [ {
        "system": "urn:oid:1.11.111.1.1.11.111.11",
        "value": "123322ab-123322ab"
      } ],
      "status": "current",
      "docStatus": "final",
      "type": {
        "coding": [ {
          "system": "http://loinc.org",
          "code": "74146-2",
          "display": "Heart disease action plan"
        } ]
      },
      "subject": {
        "reference": "Patient/154678"
      },
      "date": "2015-02-07T13:28:17Z",
      "author": [ {
        "reference": "Practitioner/21"
      } ],
      "custodian": {
        "reference": "Organization/1"
      },
      "content": [ {
        "attachment": {
          "contentType": "application/pdf",
          "language": "en",
          "data": "",
          "title": "exampleHeartDiseaseActionPlan",
          "creation": "2015-02-07"
        }
      } ],
      "context": {
        "practiceSetting": {
          "coding": [ {
            "system": "http://snomed.info/sct",
            "code": "394579002",
            "display": "Cardiology"
          } ]
        }
      }
    }
  }, {
    "fullUrl": "http://interopehrate.eu/fhir/Resources/DocumentReference/34563",
    "resource": {
      "resourceType": "DocumentReference",
      "id": "34563",
      "meta": {
        "profile": [ "http://interopehrate.eu/fhir/StructureDefinition/DocumentReference-MedicalDocument-IEHR" ]
      },
      "language": "en",
      "identifier": [ {
        "system": "urn:oid:1.11.111.1.1.11.111.11",
        "value": "123323ab-123323ab"
      } ],
      "status": "current",
      "docStatus": "final",
      "type": {
        "coding": [ {
          "system": "http://loinc.org",
          "code": "64299-1",
          "display": "Legal document"
        } ]
      },
      "subject": {
        "reference": "Patient/154678"
      },
      "date": "2018-04-09T10:20:23.000+00:00",
      "author": [ {
        "reference": "Practitioner/21"
      } ],
      "custodian": {
        "reference": "Organization/1"
      },
      "content": [ {
        "attachment": {
          "contentType": "application/pdf",
          "language": "en",
          "data": "",
          "title": "exampleNeurologyLegalDocument",
          "creation": "2018-04-09"
        }
      } ],
      "context": {
        "practiceSetting": {
          "coding": [ {
            "system": "http://snomed.info/sct",
            "code": "394579002",
            "display": "Cardiology"
          } ]
        }
      }
    }
  }, {
    "fullUrl": "http://interopehrate.eu/fhir/Resources/DocumentReference/34564",
    "resource": {
      "resourceType": "DocumentReference",
      "id": "34564",
      "meta": {
        "profile": [ "http://interopehrate.eu/fhir/StructureDefinition/DocumentReference-MedicalDocument-IEHR" ]
      },
      "language": "en",
      "identifier": [ {
        "system": "urn:oid:1.11.111.1.1.11.111.11",
        "value": "123324ab-123324ab"
      } ],
      "status": "current",
      "docStatus": "final",
      "type": {
        "coding": [ {
          "system": "http://loinc.org",
          "code": "11486-8",
          "display": "Chemotherapy records"
        } ]
      },
      "subject": {
        "reference": "Patient/154678"
      },
      "date": "2019-07-18T16:25:12.000+00:00",
      "author": [ {
        "reference": "Practitioner/21"
      } ],
      "custodian": {
        "reference": "Organization/1"
      },
      "content": [ {
        "attachment": {
          "contentType": "application/pdf",
          "language": "en",
          "data": "",
          "title": "exampleOncologyChemotherapy",
          "creation": "2019-07-18"
        }
      } ],
      "context": {
        "practiceSetting": {
          "coding": [ {
            "system": "http://snomed.info/sct",
            "code": "394592004",
            "display": "Clinical oncology"
          } ]
        }
      }
    }
  }, {
    "fullUrl": "http://interopehrate.eu/fhir/Resources/DocumentReference/34565",
    "resource": {
      "resourceType": "DocumentReference",
      "id": "34565",
      "meta": {
        "profile": [ "http://interopehrate.eu/fhir/StructureDefinition/DocumentReference-MedicalDocument-IEHR" ]
      },
      "language": "en",
      "identifier": [ {
        "system": "urn:oid:1.11.111.1.1.11.111.11",
        "value": "123325ab-123325ab"
      } ],
      "status": "current",
      "docStatus": "final",
      "type": {
        "coding": [ {
          "system": "http://loinc.org",
          "code": "34896-1",
          "display": "Cardiology Interventional procedure note"
        } ]
      },
      "subject": {
        "reference": "Patient/154678"
      },
      "date": "2012-11-11T12:00:18.000+00:00",
      "author": [ {
        "reference": "Practitioner/21"
      } ],
      "custodian": {
        "reference": "Organization/1"
      },
      "content": [ {
        "attachment": {
          "contentType": "application/pdf",
          "language": "en",
          "data": "",
          "title": "exampleCardiologyProcedure",
          "creation": "2012-11-11"
        }
      } ],
      "context": {
        "practiceSetting": {
          "coding": [ {
            "system": "http://snomed.info/sct",
            "code": "394579002",
            "display": "Cardiology"
          } ]
        }
      }
    }
  }, {
    "fullUrl": "http://interopehrate.eu/fhir/Resources/DocumentReference/34566",
    "resource": {
      "resourceType": "DocumentReference",
      "id": "34566",
      "meta": {
        "profile": [ "http://interopehrate.eu/fhir/StructureDefinition/DocumentReference-MedicalDocument-IEHR" ]
      },
      "language": "en",
      "identifier": [ {
        "system": "urn:oid:1.11.111.1.1.11.111.11",
        "value": "123326ab-123326ab"
      } ],
      "status": "current",
      "docStatus": "final",
      "type": {
        "coding": [ {
          "system": "http://loinc.org",
          "code": "68823-4",
          "display": "Pediatrics Hospital Discharge summary"
        } ]
      },
      "subject": {
        "reference": "Patient/154678"
      },
      "date": "2007-07-07T14:58:40.000+00:00",
      "author": [ {
        "reference": "Practitioner/21"
      } ],
      "custodian": {
        "reference": "Organization/1"
      },
      "content": [ {
        "attachment": {
          "contentType": "application/pdf",
          "language": "en",
          "data": "",
          "title": "examplePediatricSurgery",
          "creation": "2007-07-07"
        }
      } ],
      "context": {
        "practiceSetting": {
          "coding": [ {
            "system": "http://snomed.info/sct",
            "code": "394539006",
            "display": "Pediatric surgery"
          } ]
        }
      }
    }
  }, {
    "fullUrl": "http://interopehrate.eu/fhir/Resources/DocumentReference/34567",
    "resource": {
      "resourceType": "DocumentReference",
      "id": "34567",
      "meta": {
        "profile": [ "http://interopehrate.eu/fhir/StructureDefinition/DocumentReference-MedicalDocument-IEHR" ]
      },
      "language": "en",
      "identifier": [ {
        "system": "urn:oid:1.11.111.1.1.11.111.11",
        "value": "123327ab-123327ab"
      } ],
      "status": "current",
      "docStatus": "final",
      "type": {
        "coding": [ {
          "system": "http://loinc.org",
          "code": "34107-3",
          "display": "Patient's home Education note"
        } ]
      },
      "subject": {
        "reference": "Patient/154678"
      },
      "date": "2016-12-12T12:00:18.000+00:00",
      "author": [ {
        "reference": "Practitioner/21"
      } ],
      "custodian": {
        "reference": "Organization/1"
      },
      "content": [ {
        "attachment": {
          "contentType": "application/pdf",
          "language": "en",
          "data": "",
          "title": "exampleHomeEducationNote",
          "creation": "2016-12-12"
        }
      } ],
      "context": {
        "practiceSetting": {
          "coding": [ {
            "system": "http://snomed.info/sct",
            "code": "394587001",
            "display": "Psychiatry"
          } ]
        }
      }
    }
  }, {
    "fullUrl": "http://interopehrate.eu/fhir/Resources/DocumentReference/34568",
    "resource": {
      "resourceType": "DocumentReference",
      "id": "34568",
      "meta": {
        "profile": [ "http://interopehrate.eu/fhir/StructureDefinition/DocumentReference-MedicalDocument-IEHR" ]
      },
      "language": "en",
      "identifier": [ {
        "system": "urn:oid:1.11.111.1.1.11.111.11",
        "value": "123328ab-123328ab"
      } ],
      "status": "current",
      "docStatus": "final",
      "type": {
        "coding": [ {
          "system": "http://loinc.org",
          "code": "34788-0",
          "display": "Psychiatry Consult note"
        } ]
      },
      "subject": {
        "reference": "Patient/154678"
      },
      "date": "2020-08-10T10:58:40.000+00:00",
      "author": [ {
        "reference": "Practitioner/21"
      } ],
      "custodian": {
        "reference": "Organization/1"
      },
      "content": [ {
        "attachment": {
          "contentType": "application/pdf",
          "language": "en",
          "data": "",
          "title": "examplePsychiatryConsultNote",
          "creation": "2020-08-10"
        }
      } ],
      "context": {
        "practiceSetting": {
          "coding": [ {
            "system": "http://snomed.info/sct",
            "code": "394587001",
            "display": "Psychiatry"
          } ]
        }
      }
    }
  }, {
    "fullUrl": "http://interopehrate.eu/fhir/Resources/Patient/154678",
    "resource": {
      "resourceType": "Patient",
      "id": "154678",
      "meta": {
        "profile": [ "http://hl7.org/fhir/uv/ips/StructureDefinition/Patient-uv-ips" ]
      },
      "language": "en",
      "name": [ {
        "family": "Smith",
        "given": [ "Markus" ]
      } ],
      "gender": "male",
      "birthDate": "2000-12-05"
    }
  }, {
    "fullUrl": "http://interopehrate.eu/fhir/Resources/Organization/1",
    "resource": {
      "resourceType": "Organization",
      "id": "1",
      "language": "en",
      "name": "Fondazione Gabriele Monasterio",
      "address": [ {
        "line": [ "Via Giuseppe Moruzzi 1" ],
        "city": "Pisa",
        "country": "Italy"
      } ]
    }
  }, {
    "fullUrl": "http://interopehrate.eu/fhir/Resources/Practitioner/21",
    "resource": {
      "resourceType": "Practitioner",
      "id": "21",
      "meta": {
        "profile": [ "http://hl7.org/fhir/uv/ips/StructureDefinition/Practitioner-uv-ips" ]
      },
      "language": "en",
      "name": [ {
        "family": "Antonio",
        "given": [ "Mark" ]
      } ]
    }
  } ]
}