{
  "resourceType": "Bundle",
  "id": "321457",
  "type": "collection",
  "timestamp": "2020-10-15T16:53:09.680+02:00",
  "entry": [
    {
      "fullUrl": "http://interopehrate.eu/fhir/Resources/DocumentReference/3456",
      "resource": {
        "resourceType": "DocumentReference",
        "id": "3456",
        "language": "en",
        "identifier": [
          {
            "system": "urn:oid:1.11.111.1.1.11.111.11",
            "value": "123321ab-123321ab"
          }
        ],
        "status": "current",
        "docStatus": "final",
        "type": {
          "coding": [
            {
              "system": "http://loinc.org",
              "code": "11488-4",
              "display": "Consult note"
            }
          ]
        },
        "subject": {
          "reference": "Patient/154678"
        },
        "date": "2020-10-15T16:53:09.695+02:00",
        "author": [
          {
            "reference": "Practitioner/21"
          }
        ],
        "custodian": {
          "reference": "Organization/1"
        },
        "content": [
          {
            "attachment": {
              "contentType": "application/pdf",
              "language": "en",
              "data": "",
              "title": "ExamplePDF",
              "creation": "2020-06-25"
            }
          }
        ],
        "context": {
          "practiceSetting": {
            "coding": [
              {
                "system": "http://snomed.info/sct",
                "code": "394579002",
                "display": "Cardiology"
              }
            ]
          }
        }
      }
    },
    {
      "fullUrl": "http://interopehrate.eu/fhir/Resources/Patient/154678",
      "resource": {
        "resourceType": "Patient",
        "id": "154678",
        "name": [
          {
            "family": "Smith",
            "given": [
              "Markus"
            ]
          }
        ],
        "gender": "male",
        "birthDate": "2013-12-05"
      }
    },
    {
      "fullUrl": "http://interopehrate.eu/fhir/Resources/Organization/1",
      "resource": {
        "resourceType": "Organization",
        "id": "1",
        "name": "Fondazione Gabriele Monasterio",
        "address": [
          {
            "line": [
              "Via Giuseppe Moruzzi 1"
            ],
            "city": "Pisa",
            "country": "Italy"
          }
        ]
      }
    },
    {
      "fullUrl": "http://interopehrate.eu/fhir/Resources/Practitioner/21",
      "resource": {
        "resourceType": "Practitioner",
        "id": "21",
        "name": [
          {
            "family": "Antonio",
            "given": [
              "Mark"
            ]
          }
        ]
      }
    }
  ]
}